onset	duration	trial_num	target_nontarget	image_id	transition_duration	resp_1st	resp_2nd	rt_1st	rt_2nd	acc
3.00513866799884	1.0001	1	1	3	0.8045	1	0	0.5929	0	1
NaN	1.0001	2	1	1	0.8001	1	0	0.716	0	1
NaN	1	3	1	7	0.8027	1	0	0.7388	0	1
NaN	1	4	1	8	0.8013	1	0	0.8548	0	1
NaN	1	5	1	1	0.8008	1	0	0.7211	0	1
NaN	1.0001	6	2	11	0.8441	1	0	0.7063	0	0
NaN	1	7	1	8	0.8067	1	0	0.6073	0	1
NaN	1	8	1	3	0.8062	1	0	0.4937	0	1
NaN	1	9	1	2	0.8059	1	0	0.3522	0	1
NaN	1	10	1	6	0.8435	1	0	0.2998	0	1
NaN	1	11	2	11	0.805	1	0	0.4544	0	0
NaN	1	12	1	10	0.8088	1	0	0.7061	0	1
NaN	1	13	1	3	0.809	1	0	0.7256	0	1
NaN	1	14	1	4	0.8086	1	0	0.8423	0	1
NaN	1	15	1	2	0.8035	1	0	0.7989	0	1
NaN	1	16	1	9	0.8072	1	0	0.8036	0	1
NaN	1	17	1	6	0.8404	1	0	0.8162	0	1
NaN	1	18	1	5	0.8063	0	0	0	0	0
NaN	1	19	1	9	0.8016	1	0	0.7223	0	1
NaN	1	20	2	11	0.8052	0	0	0	0	1
NaN	1	21	1	8	0.8056	1	0	0.6144	0	1
NaN	1	22	1	10	0.8006	1	0	0.6291	0	1
NaN	1	23	1	8	0.8039	1	0	0.7387	0	1
NaN	1	24	1	4	0.7999	1	0	0.8353	0	1
NaN	1	25	1	7	0.804	1	0	0.7719	0	1
NaN	1	26	2	11	0.8028	0	0	0	0	1
NaN	1	27	1	8	0.8023	1	0	0.5862	0	1
NaN	1	28	1	6	0.8021	1	0	0.6778	0	1
NaN	1	29	1	7	0.7976	1	0	0.7335	0	1
NaN	1	30	1	10	0.8016	1	0	0.812	0	1
NaN	1	31	1	2	0.8017	1	0	0.8297	0	1
NaN	1	32	1	5	0.8008	1	0	1.1008	0	1
NaN	1	33	1	1	0.8	1	0	0.9048	0	1
NaN	1	34	1	7	0.7995	1	0	0.907	0	1
NaN	1	35	1	4	0.7983	1	0	0.8306	0	1
NaN	1	36	1	5	0.799	1	0	1.0317	0	1
NaN	1	37	1	6	0.8109	1	0	0.7708	0	1
NaN	1	38	2	11	0.8143	0	0	0	0	1
NaN	1	39	1	9	0.814	1	0	0.7648	0	1
NaN	1	40	1	5	0.8089	1	0	0.7655	0	1
NaN	1	41	1	2	0.8131	1	0	0.7591	0	1
NaN	1	42	1	5	0.8088	1	0	0.7668	0	1
NaN	1	43	1	1	0.8127	1	0	0.8613	0	1
NaN	1	44	1	3	0.812	1	0	0.751	0	1
NaN	1	45	2	11	0.8108	1	0	0.7195	0	0
NaN	1	46	1	5	0.8111	1	0	0.6402	0	1
NaN	1	47	1	8	0.8109	1	0	0.8938	0	1
NaN	1	48	1	6	0.8105	1	0	0.7864	0	1
NaN	1	49	1	10	0.81	1	0	0.833	0	1
NaN	1	50	1	6	0.8093	1	0	0.8516	0	1
NaN	1	51	1	1	0.8085	1	0	0.9753	0	1
NaN	1	52	1	10	0.8087	1	0	0.8859	0	1
NaN	1	53	1	4	0.8085	1	0	0.9415	0	1
NaN	1	54	2	11	0.8033	1	0	0.8452	0	0
NaN	1	55	1	3	0.8077	1	0	0.8677	0	1
NaN	1	56	1	8	0.8076	1	0	0.7774	0	1
NaN	1	57	1	5	0.807	1	0	0.691	0	1
NaN	1	58	1	8	0.8057	1	0	0.5136	0	1
NaN	1	59	1	9	0.8008	1	0	0.5205	0	1
NaN	1	60	1	4	0.8049	1	0	0.68	0	1
NaN	1	61	1	9	0.8046	1	0	0.6547	0	1
NaN	1	62	1	6	0.804	1	0	0.7323	0	1
NaN	1	63	1	10	0.8032	1	0	0.7699	0	1
NaN	1	64	1	3	0.8026	1	0	0.7585	0	1
NaN	1	65	1	10	0.802	1	0	0.99	0	1
NaN	1	66	1	4	0.8026	1	0	0.9057	0	1
NaN	1	67	2	11	0.8023	0	0	0	0	1
NaN	1	68	1	2	0.8018	1	0	0.8329	0	1
NaN	1	69	1	9	0.8011	1	0	0.7486	0	1
NaN	1	70	1	5	0.7965	1	0	0.5792	0	1
NaN	1	71	2	11	0.7959	1	0	0.5328	0	0
NaN	1	72	1	3	0.7957	1	0	0.6705	0	1
NaN	1	73	1	7	0.799	1	0	0.711	0	1
NaN	1	74	1	4	0.7944	1	0	0.7106	0	1
NaN	1	75	1	2	0.7987	1	0	0.7433	0	1
NaN	1	76	1	7	0.7941	1	0	0.8009	0	1
NaN	1	77	1	6	0.8141	1	0	0.7564	0	1
NaN	1	78	1	2	0.8143	1	0	0.7452	0	1
NaN	1	79	1	3	0.8093	1	0	0.9347	0	1
NaN	1	80	1	4	0.8091	1	0	1.044	0	1
NaN	1	81	1	1	0.8135	0	0	0	0	0
NaN	1	82	1	4	0.813	1	0	0.8106	0	1
NaN	1	83	1	9	0.8115	1	0	0.7642	0	1
NaN	1	84	1	8	0.8074	1	0	0.9958	0	1
NaN	1	85	1	7	0.8064	1	0	0.9284	0	1
NaN	1	86	1	2	0.8061	1	0	0.856	0	1
NaN	1	87	1	9	0.8066	1	0	0.7247	0	1
NaN	1	88	1	10	0.8052	1	0	0.8003	0	1
NaN	1	89	1	2	0.8045	1	0	0.8069	0	1
NaN	1	90	1	7	0.8053	1	0	0.9515	0	1
NaN	1	91	2	11	0.8088	0	0	0	0	1
NaN	1	92	1	5	0.8035	1	0	0.6467	0	1
NaN	1	93	1	3	0.8086	1	0	0.5192	0	1
NaN	1	94	1	1	0.8072	1	0	0.5689	0	1
NaN	1	95	1	10	0.8075	1	0	0.6455	0	1
NaN	1	96	1	9	0.807	1	0	0.7742	0	1
NaN	1	97	1	1	0.806	1	0	1.0533	0	1
NaN	1	98	1	7	0.8062	1	0	0.9103	0	1
NaN	1	99	1	1	0.8011	1	0	0.8528	0	1
NaN	1	100	1	6	0.801	1	0	0.7485	0	1
NaN	1	101	1	10	0.8051	1	0	0.8281	0	1
NaN	1	102	1	6	0.8045	1	0	0.7987	0	1
NaN	1	103	1	9	0.7998	1	0	0.8083	0	1
NaN	1	104	1	4	0.7997	1	0	0.9449	0	1
NaN	1	105	1	8	0.8029	1	0	0.8656	0	1
NaN	1	106	1	1	0.803	1	0	0.9872	0	1
NaN	1	107	1	6	0.8023	1	0	0.7078	0	1
NaN	1	108	1	10	0.7978	1	0	0.8184	0	1
NaN	1	109	1	2	0.801	1	0	0.6982	0	1
NaN	1	110	1	3	0.7973	1	0	0.6187	0	1
NaN	1	111	1	6	0.8011	1	0	0.7602	0	1
NaN	1	112	2	11	0.7962	1	0	0.7198	0	0
NaN	1	113	1	5	0.8002	1	0	0.6315	0	1
NaN	1	114	1	7	0.7994	1	0	0.5791	0	1
NaN	1	115	2	11	0.795	1	0	0.5486	0	0
NaN	1	116	1	7	0.7982	1	0	0.6752	0	1
NaN	1	117	1	1	0.7976	1	0	0.6178	0	1
NaN	1	118	1	5	0.8146	1	0	0.6194	0	1
NaN	1	119	1	7	0.8139	1	0	0.5539	0	1
NaN	1	120	1	5	0.8132	1	0	0.8795	0	1
NaN	1	121	1	3	0.8127	1	0	0.7922	0	1
NaN	1	122	1	4	0.8127	1	0	0.7479	0	1
NaN	1	123	1	10	0.807	1	0	0.7317	0	1
NaN	1	124	1	7	0.807	1	0	0.7033	0	1
NaN	1	125	1	2	0.8119	1	0	0.7019	0	1
NaN	1	126	1	9	0.8101	1	0	0.7446	0	1
NaN	1	127	1	8	0.8056	1	0	0.9672	0	1
NaN	1	128	1	1	0.8098	1	0	0.6939	0	1
NaN	1	129	1	4	0.8096	1	0	0.7544	0	1
NaN	1	130	1	3	0.8092	1	0	0.6901	0	1
NaN	1	131	2	11	0.8082	0	0	0	0	1
NaN	1	132	1	2	0.808	1	0	0.6993	0	1
NaN	1	133	1	7	0.8073	1	0	0.752	0	1
NaN	1	134	2	11	0.8074	0	0	0	0	1
NaN	1	135	1	3	0.8028	1	0	0.5412	0	1
NaN	1	136	1	10	0.8069	1	0	0.6948	0	1
NaN	1	137	1	2	0.8064	1	0	0.6584	0	1
NaN	1	138	1	6	0.8055	1	0	0.6469	0	1
NaN	1	139	1	10	0.806	1	0	0.6846	0	1
NaN	1	140	1	9	0.8	1	0	0.6831	0	1
NaN	1	141	1	8	0.8044	1	0	0.7788	0	1
NaN	1	142	2	11	0.8045	0	0	0	0	1
NaN	1	143	1	6	0.8038	1	0	0.654	0	1
NaN	1	144	1	8	0.8034	1	0	0.6327	0	1
NaN	1	145	1	10	0.8021	1	0	0.8033	0	1
NaN	1	146	1	1	0.8021	1	0	0.7219	0	1
NaN	1	147	1	9	0.7978	1	0	0.8785	0	1
NaN	1	148	1	7	0.7974	1	0	0.4851	0	1
NaN	1	149	1	9	0.8006	1	0	0.7308	0	1
NaN	1	150	2	11	0.8002	0	0	0	0	1
NaN	1	151	1	4	0.8006	1	0	0.556	0	1
NaN	1	152	1	9	0.7986	1	0	0.6328	0	1
NaN	1	153	1	7	0.7951	1	0	0.6845	0	1
NaN	1	154	1	5	0.7985	1	0	0.6612	0	1
NaN	1	155	1	3	0.8147	1	0	0.6417	0	1
NaN	1	156	1	5	0.8103	1	0	0.6551	0	1
NaN	1	157	2	11	0.8143	0	0	0	0	1
NaN	1	158	1	8	0.8134	1	0	0.5524	0	1
NaN	1	159	1	9	0.8081	1	0	0.605	0	1
NaN	1	160	1	10	0.8128	1	0	0.6626	0	1
NaN	1	161	1	1	0.8116	1	0	0.8992	0	1
NaN	1	162	1	2	0.8112	1	0	0.7089	0	1
NaN	1	163	1	8	0.8106	1	0	0.7284	0	1
NaN	1	164	1	2	0.8113	1	0	0.7351	0	1
NaN	1	165	1	9	0.8108	1	0	0.7336	0	1
NaN	1	166	1	4	0.8104	1	0	0.7463	0	1
NaN	1	167	1	7	0.81	1	0	0.8439	0	1
NaN	1	168	1	5	0.8098	1	0	0.7195	0	1
NaN	1	169	1	1	0.8087	1	0	0.7133	0	1
NaN	1	170	1	8	0.8038	1	0	1.0243	0	1
NaN	1	171	1	3	0.8075	1	0	0.7094	0	1
NaN	1	172	1	6	0.8036	1	0	0.7489	0	1
NaN	1	173	1	4	0.8026	1	0	1.0681	0	1
NaN	1	174	2	11	0.8069	0	0	0	0	1
NaN	1	175	1	1	0.8067	1	0	0.5727	0	1
NaN	1	176	1	9	0.8062	1	0	0.5973	0	1
NaN	1	177	1	6	0.8063	1	0	0.554	0	1
NaN	1	178	2	11	0.8006	1	0	0.9955	0	0
NaN	1	179	1	5	0.8044	1	0	0.8111	0	1
NaN	1	180	1	1	0.8041	1	0	0.6638	0	1
NaN	1	181	1	2	0.7994	1	0	0.5844	0	1
NaN	1	182	1	10	0.803	1	0	0.658	0	1
NaN	1	183	1	8	0.8028	1	0	1.0291	0	1
NaN	1	184	1	3	0.7984	1	0	0.6583	0	1
NaN	1	185	1	5	0.8018	1	0	0.7193	0	1
NaN	1	186	1	8	0.8018	1	0	0.923	0	1
NaN	1	187	1	1	0.8002	1	0	0.8428	0	1
NaN	1	188	2	11	0.7999	0	0	0	0	1
NaN	1	189	1	4	0.7998	1	0	0.5991	0	1
NaN	1	190	1	10	0.7945	1	0	0.6359	0	1
NaN	1	191	1	4	0.7947	1	0	0.6674	0	1
NaN	1	192	1	7	0.7996	1	0	0.6439	0	1
NaN	1	193	1	3	0.8145	1	0	0.6666	0	1
NaN	1	194	1	2	0.8139	1	0	0.7812	0	1
NaN	1	195	1	6	0.8099	1	0	0.7689	0	1
NaN	1	196	1	5	0.8136	1	0	0.6676	0	1
NaN	1	197	1	2	0.8129	1	0	0.7502	0	1
NaN	1	198	1	3	0.8131	1	0	0.7857	0	1
NaN	1	199	1	4	0.8124	1	0	0.7683	0	1
NaN	1	200	1	6	0.8114	1	0	0.7089	0	1
NaN	1	201	1	7	0.812	1	0	0.8765	0	1
NaN	1	202	1	3	0.8118	1	0	0.7002	0	1
NaN	1	203	1	4	0.8109	1	0	0.7368	0	1
NaN	1	204	1	7	0.8102	1	0	0.8105	0	1
NaN	1	205	1	1	0.8106	1	0	1.0627	0	1
NaN	1	206	1	6	0.8087	1	0	0.8007	0	1
NaN	1	207	1	8	0.8044	1	0	0.8452	0	1
NaN	1	208	1	1	0.8037	1	0	0.8089	0	1
NaN	1	209	1	3	0.8082	1	0	0.7605	0	1
NaN	1	210	1	7	0.8081	1	0	0.6581	0	1
NaN	1	211	1	10	0.8032	1	0	0.7677	0	1
NaN	1	212	1	4	0.8031	1	0	0.6964	0	1
NaN	1	213	1	1	0.8022	1	0	0.786	0	1
NaN	1	214	2	11	0.806	0	0	0	0	1
NaN	1	215	1	2	0.8063	1	0	0.8102	0	1
NaN	1	216	1	6	0.8057	1	0	0.7658	0	1
NaN	1	217	1	3	0.8005	1	0	0.7295	0	1
NaN	1	218	1	7	0.8043	1	0	0.7341	0	1
NaN	1	219	1	4	0.8043	1	0	0.7737	0	1
NaN	1	220	1	8	0.7996	1	0	0.7904	0	1
NaN	1	221	1	9	0.8037	1	0	0.755	0	1
NaN	1	222	1	1	0.8035	1	0	0.8105	0	1
NaN	1	223	1	4	0.8035	1	0	0.8121	0	1
NaN	1	224	1	5	0.7975	1	0	0.7909	0	1
NaN	1	225	1	9	0.7971	1	0	0.8024	0	1
NaN	1	226	1	1	0.8018	1	0	0.836	0	1
NaN	1	227	1	8	0.801	1	0	0.8456	0	1
NaN	1	228	1	2	0.8013	1	0	0.7733	0	1
NaN	1	229	2	11	0.7999	1	0	0.706	0	0
NaN	1	230	1	3	0.801	1	0	0.7435	0	1
NaN	1	231	1	8	0.7998	1	0	0.7622	0	1
NaN	1	232	2	11	0.7991	1	0	0.7459	0	0
NaN	1	233	1	8	0.7984	1	0	1.0489	0	1
NaN	1	234	1	6	0.8155	1	0	1.0046	0	1
NaN	1	235	1	3	0.8101	1	0	0.9626	0	1
NaN	1	236	1	4	0.8138	1	0	0.9282	0	1
NaN	1	237	2	11	0.8135	1	0	0.8869	0	0
NaN	1	238	1	9	0.8091	1	0	0.9354	0	1
NaN	1	239	1	10	0.8135	1	0	0.822	0	1
NaN	1	240	1	7	0.8128	1	0	0.9376	0	1
NaN	1	241	1	8	0.8119	1	0	1.0409	0	1
NaN	1	242	1	10	0.8116	1	0	0.9269	0	1
NaN	1	243	2	11	0.8117	0	0	0	0	1
NaN	1	244	1	2	0.8108	1	0	0.7681	0	1
NaN	1	245	1	8	0.8111	1	0	0.7537	0	1
NaN	1	246	1	6	0.8106	1	0	0.7145	0	1
NaN	1	247	1	2	0.8105	1	0	0.73	0	1
NaN	1	248	2	11	0.8088	0	0	0	0	1
NaN	1	249	1	4	0.8049	1	0	0.6228	0	1
NaN	1	250	2	11	0.809	1	0	0.6415	0	0
NaN	1	251	1	10	0.8068	1	0	0.8954	0	1
NaN	1	252	1	2	0.8066	1	0	0.798	0	1
NaN	1	253	1	10	0.8022	1	0	0.6937	0	1
NaN	1	254	1	6	0.8062	1	0	0.8133	0	1
NaN	1	255	1	5	0.8055	1	0	0.7629	0	1
NaN	1	256	1	4	0.8049	1	0	0.7105	0	1
NaN	1	257	1	7	0.8052	1	0	0.8211	0	1
NaN	1	258	1	9	0.8048	1	0	0.7388	0	1
NaN	1	259	1	5	0.8046	1	0	0.7464	0	1
NaN	1	260	1	7	0.7994	1	0	0.766	0	1
NaN	1	261	1	9	0.8031	1	0	0.7527	0	1
NaN	1	262	1	1	0.7982	1	0	0.8483	0	1
NaN	1	263	1	9	0.8027	1	0	0.7979	0	1
NaN	1	264	1	5	0.798	1	0	0.7795	0	1
NaN	1	265	1	4	0.8018	1	0	0.7531	0	1
NaN	1	266	1	3	0.8018	1	0	0.8358	0	1
NaN	1	267	1	8	0.8012	1	0	0.9084	0	1
NaN	1	268	1	9	0.8	0	0	0	0	0
NaN	1	269	2	11	0.7958	1	0	0.5256	0	0
NaN	1	270	1	10	0.7957	1	0	0.6232	0	1
NaN	1	271	2	11	0.7996	0	0	0	0	1
NaN	1	272	1	6	0.7995	1	0	0.6685	0	1
NaN	1	273	1	5	0.7992	1	0	1.0997	0	1
NaN	1	274	2	11	0.8152	0	0	0	0	1
NaN	1	275	1	3	0.8138	1	0	0.6374	0	1
NaN	1	276	1	6	0.8141	1	0	0.704	0	1
NaN	1	277	1	5	0.8092	1	0	0.8676	0	1
NaN	1	278	1	6	0.8132	1	0	0.6922	0	1
NaN	1	279	1	5	0.8125	1	0	0.716	0	1
NaN	1	280	1	4	0.8123	1	0	0.7846	0	1
NaN	1	281	1	1	0.8079	1	0	0.6951	0	1
NaN	1	282	1	2	0.8074	1	0	0.7268	0	1
NaN	1	283	1	8	0.812	1	0	0.8085	0	1
NaN	1	284	1	9	0.8108	1	0	0.844	0	1
NaN	1	285	1	2	0.8066	1	0	0.7106	0	1
NaN	1	286	1	10	0.81	1	0	0.6702	0	1
NaN	1	287	1	3	0.8098	1	0	0.7619	0	1
NaN	1	288	1	6	0.8095	1	0	0.7325	0	1
NaN	1	289	1	9	0.8091	1	0	1.0657	0	1
NaN	1	290	1	5	0.8037	1	0	0.8187	0	1
NaN	1	291	1	7	0.8081	1	0	0.7314	0	1
NaN	1	292	1	5	0.8081	1	0	0.77	0	1
NaN	1	293	1	2	0.8074	1	0	0.7766	0	1
NaN	1	294	1	1	0.8074	1	0	0.9352	0	1
NaN	1	295	1	10	0.8027	1	0	0.7969	0	1
NaN	1	296	1	3	0.8059	1	0	0.7415	0	1
NaN	1	297	1	2	0.8057	1	0	0.7141	0	1
NaN	1	298	1	1	0.8052	1	0	0.7058	0	1
NaN	1	299	1	10	0.8053	1	0	0.7415	0	1
NaN	1	300	1	7	0.8039	1	0	0.7103	0	1
NaN	1	301	2	11	0.8033	0	0	0	0	1
NaN	1	302	1	2	0.8031	1	0	0.7576	0	1
NaN	1	303	1	9	0.7984	1	0	0.7843	0	1
NaN	1	304	1	10	0.8025	1	0	0.8368	0	1
NaN	1	305	1	4	0.802	1	0	0.7535	0	1
NaN	1	306	1	10	0.8017	1	0	0.7722	0	1
NaN	1	307	1	8	0.8008	1	0	0.8417	0	1
NaN	1	308	1	7	0.8012	1	0	0.7781	0	1
NaN	1	309	1	1	0.8002	1	0	0.8158	0	1
NaN	1	310	1	9	0.8003	1	0	0.7674	0	1
NaN	1	311	1	1	0.7999	1	0	0.7292	0	1
NaN	1	312	1	5	0.7952	1	0	0.7107	0	1
NaN	1	313	1	10	0.7948	1	0	0.6804	0	1
NaN	1	314	1	7	0.7984	1	0	0.712	0	1
NaN	1	315	1	3	0.8155	1	0	0.7725	0	1
NaN	1	316	1	8	0.8143	1	0	0.8232	0	1
NaN	1	317	1	5	0.81	1	0	0.7449	0	1
NaN	1	318	2	11	0.8133	0	0	0	0	1
NaN	1	319	1	7	0.8125	1	0	0.589	0	1
NaN	1	320	2	11	0.813	0	0	0	0	1
NaN	1	321	1	3	0.8118	1	0	0.5793	0	1
NaN	1	322	1	4	0.8125	1	0	0.8759	0	1
NaN	1	323	1	5	0.8074	1	0	0.8385	0	1
NaN	1	324	1	1	0.8108	1	0	0.8561	0	1
NaN	1	325	1	6	0.8107	1	0	0.7818	0	1
NaN	1	326	1	4	0.8101	1	0	0.8053	0	1
NaN	1	327	1	6	0.8101	1	0	0.776	0	1
NaN	1	328	1	2	0.8099	1	0	0.8376	0	1
NaN	1	329	1	7	0.8049	1	0	0.7603	0	1
NaN	1	330	1	2	0.8081	1	0	0.7488	0	1
NaN	1	331	1	7	0.8085	1	0	0.7365	0	1
NaN	1	332	2	11	0.8033	0	0	0	0	1
NaN	1	333	1	4	0.8076	1	0	0.6568	0	1
NaN	1	334	2	11	0.8072	0	0	0	0	1
NaN	1	335	1	8	0.8063	1	0	0.665	0	1
NaN	1	336	1	5	0.8059	1	0	0.8756	0	1
NaN	1	337	1	2	0.8055	1	0	0.7242	0	1
NaN	1	338	2	11	0.8058	1	0	0.7668	0	0
NaN	1	339	1	10	0.8048	1	0	0.6535	0	1
NaN	1	340	1	9	0.8053	1	0	0.8199	0	1
NaN	1	341	1	6	0.8051	1	0	0.7896	0	1
NaN	1	342	1	2	0.7995	1	0	0.7282	0	1
NaN	1	343	1	9	0.8029	1	0	0.8429	0	1
NaN	1	344	1	4	0.8028	1	0	0.8365	0	1
NaN	1	345	1	5	0.8033	1	0	0.9351	0	1
NaN	1	346	1	8	0.8016	1	0	0.7747	0	1
NaN	1	347	1	1	0.8018	1	0	0.8084	0	1
NaN	1	348	1	6	0.7966	1	0	0.6671	0	1
NaN	1	349	1	2	0.8011	1	0	0.6897	0	1
NaN	1	350	1	5	0.801	1	0	0.6843	0	1
NaN	1	351	1	4	0.8005	1	0	0.6929	0	1
NaN	1	352	1	1	0.8006	1	0	0.6555	0	1
NaN	1	353	1	8	0.7952	1	0	0.6351	0	1
NaN	1	354	1	1	0.7988	1	0	0.7298	0	1
NaN	1	355	1	9	0.7976	1	0	0.7015	0	1
NaN	1	356	1	1	0.8154	1	0	0.8719	0	1
NaN	1	357	1	5	0.8151	1	0	0.8326	0	1
NaN	1	358	1	6	0.8094	1	0	0.7802	0	1
NaN	1	359	1	7	0.8092	1	0	1.0495	0	1
NaN	1	360	1	1	0.8096	1	0	0.8325	0	1
NaN	1	361	1	10	0.8129	1	0	0.7271	0	1
NaN	1	362	1	6	0.813	1	0	0.6958	0	1
NaN	1	363	1	3	0.8076	1	0	0.6684	0	1
NaN	1	364	1	8	0.8074	1	0	1.0157	0	1
NaN	1	365	1	4	0.8114	1	0	0.7666	0	1
NaN	1	366	1	10	0.8113	1	0	0.7813	0	1
NaN	1	367	1	1	0.8063	1	0	0.8198	0	1
NaN	1	368	1	7	0.8111	1	0	0.7374	0	1
NaN	1	369	2	11	0.8097	0	0	0	0	1
NaN	1	370	1	2	0.8049	1	0	0.7026	0	1
NaN	1	371	2	11	0.8044	0	0	0	0	1
NaN	1	372	1	3	0.809	1	0	0.593	0	1
NaN	1	373	1	6	0.8082	1	0	1.1372	0	1
NaN	1	374	1	10	0.8079	1	0	0.8232	0	1
NaN	1	375	1	7	0.8064	1	0	0.7671	0	1
NaN	1	376	1	5	0.8021	1	0	0.7846	0	1
NaN	1	377	2	11	0.8064	0	0	0	0	1
NaN	1	378	1	9	0.8017	1	0	0.717	0	1
NaN	1	379	1	8	0.8057	1	0	0.6417	0	1
NaN	1	380	1	3	0.8041	1	0	0.7203	0	1
NaN	1	381	1	6	0.8043	1	0	0.6959	0	1
NaN	1	382	2	11	0.8042	0	0	0	0	1
NaN	1	383	1	3	0.7991	1	0	0.6641	0	1
NaN	1	384	1	10	0.803	1	0	0.7408	0	1
NaN	1	385	1	4	0.8035	1	0	0.7065	0	1
NaN	1	386	1	8	0.7982	1	0	0.857	0	1
NaN	1	387	1	3	0.8024	1	0	0.7286	0	1
NaN	1	388	1	10	0.8023	1	0	0.7763	0	1
NaN	1	389	1	9	0.7966	1	0	0.868	0	1
NaN	1	390	1	2	0.8006	1	0	0.7916	0	1
NaN	1	391	1	9	0.7965	1	0	0.7442	0	1
NaN	1	392	1	4	0.8012	1	0	0.7608	0	1
NaN	1	393	1	6	0.8	1	0	0.6696	0	1
NaN	1	394	1	7	0.7953	1	0	0.7491	0	1
NaN	1	395	1	3	0.7995	1	0	0.7719	0	1
NaN	1	396	1	8	0.7987	1	0	0.8414	0	1
NaN	1	397	1	3	0.7986	1	0	0.7391	0	1
NaN	1	398	1	9	0.8146	1	0	0.8397	0	1
NaN	1	399	1	5	0.8144	1	0	0.7754	0	1
NaN	1	400	1	2	0.8133	1	0	0.7461	0	1
NaN	1	401	1	4	0.8139	1	0	0.7136	0	1
NaN	1	402	2	11	0.8138	0	0	0	0	1
NaN	1	403	1	5	0.8088	1	0	0.6549	0	1
NaN	1	404	1	9	0.8124	1	0	0.7694	0	1
NaN	1	405	1	2	0.8073	1	0	0.8241	0	1
NaN	1	406	1	9	0.8116	1	0	0.7988	0	1
NaN	1	407	1	2	0.8103	1	0	0.8044	0	1
NaN	1	408	2	11	0.8104	1	0	0.777	0	0
NaN	1	409	1	1	0.8061	1	0	0.6696	0	1
NaN	1	410	1	8	0.8117	1	0	0.8053	0	1
NaN	1	411	1	10	0.8095	1	0	0.7039	0	1
NaN	1	412	1	5	0.8096	1	0	0.6956	0	1
NaN	1	413	1	3	0.8083	1	0	0.6961	0	1
NaN	1	414	2	11	0.8045	0	0	0	0	1
NaN	1	415	1	3	0.8085	1	0	0.6174	0	1
NaN	1	416	1	6	0.8074	1	0	0.7	0	1
NaN	1	417	2	11	0.8027	1	0	0.7368	0	0
NaN	1	418	1	8	0.8023	1	0	0.6083	0	1
NaN	1	419	1	2	0.8071	1	0	0.6541	0	1
NaN	1	420	1	4	0.8061	1	0	0.6475	0	1
NaN	1	421	2	11	0.805	0	0	0	0	1
NaN	1	422	1	6	0.8009	1	0	0.5919	0	1
NaN	1	423	1	9	0.801	1	0	0.7435	0	1
NaN	1	424	1	8	0.8046	1	0	0.715	0	1
NaN	1	425	1	1	0.8046	1	0	0.7249	0	1
NaN	1	426	1	8	0.7997	1	0	0.7844	0	1
NaN	1	427	1	5	0.8032	1	0	0.662	0	1
NaN	1	428	1	3	0.8038	1	0	0.7117	0	1
NaN	1	429	1	7	0.8022	1	0	0.7153	0	1
NaN	1	430	1	8	0.8031	1	0	0.8079	0	1
NaN	1	431	1	10	0.7977	1	0	0.7916	0	1
NaN	1	432	1	7	0.8016	1	0	0.7393	0	1
NaN	1	433	1	4	0.8017	1	0	0.7569	0	1
NaN	1	434	1	10	0.8007	1	0	0.7176	0	1
NaN	1	435	1	2	0.7957	1	0	0.7811	0	1
NaN	1	436	1	10	0.7954	1	0	0.7327	0	1
NaN	1	437	1	4	0.8008	1	0	0.7114	0	1
NaN	1	438	1	6	0.7952	1	0	0.697	0	1
NaN	1	439	1	7	0.7995	1	0	0.7497	0	1
NaN	1	440	1	3	0.7985	1	0	0.7823	0	1
NaN	1	441	1	2	0.8091	1	0	0.7362	0	1
NaN	1	442	1	5	0.8092	1	0	0.8537	0	1
NaN	1	443	1	8	0.814	1	0	0.8884	0	1
NaN	1	444	1	4	0.8126	1	0	0.739	0	1
NaN	1	445	2	11	0.8128	0	0	0	0	1
NaN	1	446	1	5	0.8116	1	0	0.8023	0	1
NaN	1	447	1	1	0.8072	1	0	0.874	0	1
NaN	1	448	1	9	0.8068	1	0	0.8006	0	1
NaN	1	449	1	7	0.8104	1	0	0.7405	0	1
NaN	1	450	1	5	0.8102	1	0	0.6831	0	1
NaN	1	451	1	6	0.8044	1	0	0.6287	0	1
NaN	1	452	1	4	0.8087	1	0	0.6954	0	1
NaN	1	453	1	7	0.8093	1	0	0.6779	0	1
NaN	1	454	1	4	0.8088	1	0	0.7014	0	1
NaN	1	455	1	9	0.8081	1	0	0.7222	0	1
NaN	1	456	1	10	0.8036	1	0	0.6537	0	1
NaN	1	457	1	6	0.8024	1	0	0.5935	0	1
NaN	1	458	1	8	0.8067	1	0	0.651	0	1
NaN	1	459	1	1	0.8019	1	0	0.7016	0	1
NaN	1	460	1	6	0.8019	1	0	0.6473	0	1
NaN	1	461	1	4	0.8009	1	0	0.7279	0	1
NaN	1	462	1	8	0.8047	1	0	0.6835	0	1
NaN	1	463	2	11	0.7999	0	0	0	0	1
NaN	1	464	1	10	0.8003	1	0	0.5859	0	1
NaN	1	465	1	3	0.8044	1	0	0.7223	0	1
NaN	1	466	1	10	0.8041	1	0	0.8181	0	1
NaN	1	467	1	2	0.8027	1	0	0.7947	0	1
NaN	1	468	1	3	0.8028	1	0	0.7004	0	1
NaN	1	469	1	1	0.802	1	0	0.6589	0	1
NaN	1	470	1	7	0.798	1	0	0.6376	0	1
NaN	1	471	2	11	0.7975	1	0	0.6993	0	0
NaN	1	472	1	3	0.7971	1	0	0.5438	0	1
NaN	1	473	1	2	0.8014	1	0	0.5175	0	1
NaN	1	474	1	9	0.801	1	0	0.2831	0	1
NaN	1	475	1	2	0.8006	1	0	0.1547	0	1
NaN	1	476	1	3	0.8004	1	0	0.4313	0	1
NaN	1	477	1	10	0.7997	1	0	0.4909	0	1
NaN	1	478	1	1	0.7952	1	0	0.4985	0	1
NaN	1	479	1	5	0.7985	1	0	0.5791	0	1
NaN	1	480	1	6	0.8149	1	0	0.6158	0	1
NaN	1	481	1	9	0.815	1	0	0.6654	0	1
NaN	1	482	2	11	0.8134	0	0	0	0	1
NaN	1	483	1	7	0.814	1	0	0.7185	0	1
NaN	1	484	1	6	0.8135	1	0	0.4703	0	1
NaN	1	485	1	4	0.8132	1	0	0.5169	0	1
NaN	1	486	1	7	0.8126	1	0	0.4975	0	1
NaN	1	487	1	5	0.812	1	0	0.5751	0	1
NaN	1	488	1	10	0.8116	1	0	0.5637	0	1
NaN	1	489	1	3	0.8071	1	0	0.7593	0	1
NaN	1	490	1	9	0.811	1	0	0.65	0	1
NaN	1	491	1	1	0.8058	1	0	0.6006	0	1
NaN	1	492	2	11	0.8056	0	0	0	0	1
NaN	1	493	1	8	0.8054	1	0	0.8348	0	1
NaN	1	494	1	6	0.809	1	0	0.7306	0	1
NaN	1	495	1	9	0.8093	1	0	0.6292	0	1
NaN	1	496	1	2	0.8086	1	0	0.5918	0	1
NaN	1	497	1	1	0.8081	1	0	0.7084	0	1
NaN	1	498	1	7	0.8077	1	0	0.661	0	1
NaN	1	499	1	1	0.8068	1	0	0.6767	0	1
NaN	1	500	1	5	0.8029	1	0	0.6923	0	1
