onset	duration	trial_num	target_nontarget	image_id	transition_duration	resp_1st	resp_2nd	rt_1st	rt_2nd	acc
3.20738022502064	1.2002	1	2	50	0.5012	2	0	0.7923	0	1
NaN	1.2001	2	2	89	0.5181	2	0	0.8372	0	1
NaN	1.2001	3	2	11	0.5063	2	0	0.6912	0	1
NaN	1.2	4	2	111	0.5053	2	0	0.7364	0	1
NaN	1.2	5	2	10	0.5051	2	0	0.7667	0	1
NaN	1.2	6	2	117	0.5043	2	0	0.9231	0	1
NaN	1.2	7	2	172	0.5034	2	0	0.7726	0	1
NaN	1.2	8	2	64	0.5055	2	0	0.843	0	1
NaN	1.2	9	2	98	0.5024	2	0	0.7506	0	1
NaN	1.2	10	2	5	0.511	2	0	0.6329	0	1
NaN	1.2	11	1	18	0.5102	1	0	1.2149	0	1
NaN	1.2	12	2	122	0.5097	2	0	0.9158	0	1
NaN	1.2	13	2	22	0.5085	2	0	0.7245	0	1
NaN	1.2	14	2	31	0.5084	2	0	0.7132	0	1
NaN	1.2	15	2	179	0.5083	2	0	0.6629	0	1
NaN	1.2	16	1	120	0.5076	2	0	0.6454	0	0
NaN	1.2	17	1	66	0.5072	1	0	1.0209	0	1
NaN	1.2	18	2	159	0.5062	2	0	1.3408	0	1
NaN	1.2	19	1	90	0.5059	1	0	1.2003	0	1
NaN	1.2	20	2	67	0.5062	2	0	0.9512	0	1
NaN	1.2	21	2	130	0.5054	2	0	0.8093	0	1
NaN	1.2	22	1	138	0.505	1	0	0.7509	0	1
NaN	1.2	23	2	4	0.504	2	0	0.9023	0	1
NaN	1.2	24	2	23	0.5019	2	0	0.714	0	1
NaN	1.2	25	1	30	0.5039	1	0	0.7374	0	1
NaN	1.2	26	2	26	0.503	2	0	1.0049	0	1
NaN	1.2	27	2	147	0.5101	2	0	0.8122	0	1
NaN	1.2	28	2	165	0.51	2	0	1.0618	0	1
NaN	1.2	29	2	19	0.5121	2	0	0.8914	0	1
NaN	1.2	30	2	105	0.5105	2	0	0.864	0	1
NaN	1.2	31	2	148	0.5103	2	0	0.8714	0	1
NaN	1.2	32	2	140	0.51	2	0	0.6901	0	1
NaN	1.2	33	2	38	0.5093	2	0	0.8099	0	1
NaN	1.2	34	2	131	0.5089	2	0	0.9042	0	1
NaN	1.2	35	2	41	0.5082	2	0	0.8687	0	1
NaN	1.2	36	1	126	0.508	1	0	0.785	0	1
NaN	1.2	37	2	155	0.5072	2	0	1.0608	0	1
NaN	1.2	38	2	74	0.5073	2	0	0.7901	0	1
NaN	1.2	39	2	123	0.5077	2	0	0.6547	0	1
NaN	1.2	40	1	72	0.5059	1	0	0.8941	0	1
NaN	1.2	41	2	177	0.5064	2	0	0.8544	0	1
NaN	1.2	42	2	92	0.5063	2	0	0.8181	0	1
NaN	1.2	43	2	55	0.5047	2	0	0.6947	0	1
NaN	1.2	44	2	118	0.5052	2	0	0.6002	0	1
NaN	1.2	45	2	164	0.5054	2	0	0.6467	0	1
NaN	1.2	46	2	157	0.5053	2	0	0.6869	0	1
NaN	1.2	47	2	88	0.5045	2	0	0.7997	0	1
NaN	1.2	48	2	154	0.5042	2	0	0.7951	0	1
NaN	1.2	49	2	153	0.5041	2	0	0.7479	0	1
NaN	1.2	50	2	124	0.5033	2	0	0.6253	0	1
NaN	1.2	51	1	156	0.5032	2	0	0.6157	0	0
NaN	1.2	52	2	134	0.5182	2	0	0.565	0	1
NaN	1.2	53	2	163	0.5106	2	0	0.5758	0	1
NaN	1.2	54	2	14	0.5103	2	0	0.5594	0	1
NaN	1.2	55	2	25	0.5091	2	0	0.7217	0	1
NaN	1.2	56	2	15	0.5096	2	0	0.5392	0	1
NaN	1.2	57	2	71	0.5096	2	0	0.5758	0	1
NaN	1.2	58	2	158	0.5089	2	0	0.6502	0	1
NaN	1.2	59	1	174	0.5097	1	0	0.821	0	1
NaN	1.2	60	2	171	0.5084	2	0	0.6473	0	1
NaN	1.2	61	2	17	0.5074	2	0	0.6839	0	1
NaN	1.2	62	2	94	0.5074	2	0	0.6292	0	1
NaN	1.2	63	1	12	0.5069	1	0	0.8393	0	1
NaN	1.2	64	1	36	0.5071	1	0	0.7672	0	1
NaN	1.2	65	2	49	0.5067	2	0	0.7218	0	1
NaN	1.2	66	2	145	0.5051	2	0	0.608	0	1
NaN	1.2	67	2	104	0.5056	2	0	0.6768	0	1
NaN	1.2	68	2	44	0.505	2	0	0.5772	0	1
NaN	1.2	69	2	16	0.5046	2	0	0.5828	0	1
NaN	1.2	70	1	78	0.5039	1	0	0.7192	0	1
NaN	1.2	71	2	35	0.5036	2	0	1.2052	0	1
NaN	1.2	72	2	86	0.5032	2	0	0.984	0	1
NaN	1.2	73	2	129	0.5027	2	0	0.9057	0	1
NaN	1.2	74	2	116	0.5025	2	0	0.809	0	1
NaN	1.2	75	2	161	0.5042	2	0	0.6748	0	1
NaN	1.2	76	2	113	0.5109	2	0	0.6489	0	1
NaN	1.2	77	2	175	0.5107	2	0	0.5535	0	1
NaN	1.2	78	2	83	0.5092	2	0	0.6722	0	1
NaN	1.2	79	2	52	0.5095	2	0	0.5797	0	1
NaN	1.2	80	2	135	0.5096	2	0	1.0224	0	1
NaN	1.2	81	2	121	0.5093	2	0	0.7986	0	1
NaN	1.2	82	2	61	0.5089	2	0	0.7619	0	1
NaN	1.2	83	1	180	0.5092	1	0	0.9167	0	1
NaN	1.2	84	2	125	0.5086	2	0	0.7679	0	1
NaN	1.2	85	2	127	0.5081	2	0	0.5756	0	1
NaN	1.2	86	2	100	0.5077	2	0	0.7571	0	1
NaN	1.2	87	2	63	0.5069	2	0	0.8796	0	1
NaN	1.2	88	2	7	0.5069	2	0	0.7549	0	1
NaN	1.2	89	2	85	0.5065	2	0	0.6055	0	1
NaN	1.2	90	2	139	0.5055	2	0	0.7529	0	1
NaN	1.2	91	2	37	0.5061	2	0	0.8647	0	1
NaN	1.2	92	2	81	0.5057	2	0	0.6628	0	1
NaN	1.2	93	2	57	0.5056	2	0	0.5689	0	1
NaN	1.2	94	2	82	0.5043	2	0	0.6541	0	1
NaN	1.2	95	2	34	0.5043	2	0	0.5758	0	1
NaN	1.2	96	1	168	0.5031	1	0	0.7721	0	1
NaN	1.2	97	2	53	0.5036	2	0	0.6816	0	1
NaN	1.2	98	2	21	0.5025	2	0	0.6723	0	1
NaN	1.2	99	2	58	0.5018	2	0	0.5517	0	1
NaN	1.2	100	2	169	0.5112	2	0	0.6301	0	1
NaN	1.2	101	2	137	0.5109	2	0	0.7178	0	1
NaN	1.2	102	2	45	0.5099	2	0	0.7408	0	1
NaN	1.2	103	2	13	0.5103	2	0	0.6018	0	1
NaN	1.2	104	2	59	0.5092	2	0	0.5982	0	1
NaN	1.2	105	2	146	0.5087	2	0	0.6199	0	1
NaN	1.2	106	1	42	0.5084	1	0	0.7802	0	1
NaN	1.2	107	2	91	0.5086	2	0	0.6588	0	1
NaN	1.2	108	2	170	0.5412	2	0	0.5894	0	1
NaN	1.2	109	1	108	0.509	1	0	0.7727	0	1
NaN	1.2	110	2	68	0.5074	2	0	0.7801	0	1
NaN	1.2	111	2	176	0.5077	2	0	0.6986	0	1
NaN	1.2	112	2	39	0.5063	2	0	0.7769	0	1
NaN	1.2	113	2	115	0.5058	2	0	0.6267	0	1
NaN	1.2	114	2	2	0.5058	2	0	0.7252	0	1
NaN	1.2	115	2	152	0.5053	2	0	0.8326	0	1
NaN	1.2	116	2	1	0.5057	2	0	0.6233	0	1
NaN	1.2	117	2	106	0.5045	2	0	0.5672	0	1
NaN	1.2	118	1	24	0.5041	2	0	0.6326	0	0
NaN	1.2	119	2	46	0.5041	2	0	0.6027	0	1
NaN	1.2	120	2	149	0.5035	2	0	0.5623	0	1
NaN	1.2	121	1	102	0.5029	2	0	0.6246	0	0
NaN	1.2	122	2	8	0.5044	2	0	0.7572	0	1
NaN	1.2	123	2	65	0.5187	2	0	0.5718	0	1
NaN	1.2	124	2	167	0.5111	2	0	0.7248	0	1
NaN	1.2	125	2	56	0.5107	2	0	0.6128	0	1
NaN	1.2	126	1	54	0.5101	1	0	0.7713	0	1
NaN	1.2	127	1	48	0.5101	1	0	0.7698	0	1
NaN	1.2	128	2	119	0.509	2	0	0.8362	0	1
NaN	1.2	129	2	97	0.5087	2	0	0.7791	0	1
NaN	1.2	130	2	9	0.5081	2	0	0.8753	0	1
NaN	1.2	131	2	3	0.5089	2	0	0.9489	0	1
NaN	1.2	132	2	51	0.5084	2	0	0.7313	0	1
NaN	1.2	133	2	28	0.5069	2	0	0.9108	0	1
NaN	1.2	134	1	84	0.5076	1	0	0.7092	0	1
NaN	1.2	135	2	20	0.5073	2	0	0.7227	0	1
NaN	1.2	136	2	69	0.507	2	0	0.593	0	1
NaN	1.2	137	2	141	0.5066	2	0	0.8095	0	1
NaN	1.2	138	1	6	0.5048	1	0	0.7949	0	1
NaN	1.2	139	1	114	0.5045	1	0	0.7237	0	1
NaN	1.2	140	2	136	0.5053	2	0	0.8224	0	1
NaN	1.2	141	1	162	0.5051	1	0	0.72	0	1
NaN	1.2	142	2	142	0.5047	2	0	0.9705	0	1
NaN	1.2	143	2	33	0.5038	2	0	0.6487	0	1
NaN	1.2	144	2	95	0.5035	2	0	0.7113	0	1
NaN	1.2	145	2	109	0.5037	2	0	0.7397	0	1
NaN	1.2	146	2	87	0.5023	2	0	0.6391	0	1
NaN	1.2	147	2	73	0.5017	2	0	0.9298	0	1
NaN	1.2	148	2	93	0.5115	2	0	1.0582	0	1
NaN	1.2	149	2	112	0.5119	2	0	0.8418	0	1
NaN	1.2	150	2	29	0.5088	2	0	0.9833	0	1
NaN	1.2	151	2	133	0.5099	2	0	1.0129	0	1
NaN	1.2	152	2	128	0.5095	2	0	0.8392	0	1
NaN	1.2	153	1	96	0.5078	1	0	0.7938	0	1
NaN	1.2	154	2	77	0.5083	2	0	0.8682	0	1
NaN	1.2	155	2	143	0.5089	2	0	0.6119	0	1
NaN	1.2	156	2	99	0.5084	2	0	0.6262	0	1
NaN	1.2	157	2	151	0.5076	2	0	0.5578	0	1
NaN	1.2	158	2	178	0.5073	2	0	0.6472	0	1
NaN	1.2	159	2	32	0.5069	2	0	0.5996	0	1
NaN	1.2	160	2	166	0.5065	2	0	0.6583	0	1
NaN	1.2	161	2	173	0.506	2	0	0.5917	0	1
NaN	1.2	162	2	160	0.5055	2	0	0.6563	0	1
NaN	1.2	163	2	40	0.5048	2	0	0.5281	0	1
NaN	1.2	164	1	132	0.5046	2	0	0.4662	0	0
NaN	1.2	165	1	144	0.5042	1	0	0.8208	0	1
NaN	1.2	166	2	43	0.5035	2	0	1.2719	0	1
NaN	1.2	167	1	150	0.5031	1	0	1.1449	0	1
NaN	1.2	168	1	60	0.505	1	0	0.897	0	1
NaN	1.2	169	2	70	0.5039	2	0	0.9339	0	1
NaN	1.2	170	2	75	0.5043	2	0	0.8695	0	1
NaN	1.2	171	2	76	0.5107	2	0	0.9837	0	1
NaN	1.2	172	2	80	0.5108	2	0	0.7171	0	1
NaN	1.2	173	2	27	0.5103	2	0	0.7096	0	1
NaN	1.2	174	2	107	0.5088	2	0	0.5892	0	1
NaN	1.2	175	2	62	0.5099	2	0	0.6676	0	1
NaN	1.2	176	2	103	0.5091	2	0	0.8893	0	1
NaN	1.2	177	2	79	0.5094	2	0	0.7517	0	1
NaN	1.2	178	2	101	0.5083	2	0	0.4633	0	1
NaN	1.2	179	2	47	0.5079	2	0	0.4628	0	1
NaN	1.2	180	2	110	0.5084	2	0	0.4734	0	1
NaN	1.2	181	2	338	0.5074	2	0	0.5428	0	1
NaN	1.2	182	2	202	0.5074	2	0	0.5613	0	1
NaN	1.2	183	2	322	0.507	2	0	0.6919	0	1
NaN	1.2	184	2	195	0.5139	2	0	0.6619	0	1
NaN	1.2	185	2	284	0.5076	2	0	0.6061	0	1
NaN	1.2	186	2	253	0.5044	2	0	0.5722	0	1
NaN	1.2	187	2	245	0.5056	2	0	0.5707	0	1
NaN	1.2	188	2	321	0.5048	2	0	0.6291	0	1
NaN	1.2	189	2	358	0.5048	2	0	0.5738	0	1
NaN	1.2	190	2	256	0.5048	2	0	0.6074	0	1
NaN	1.2	191	1	360	0.5048	1	0	0.7598	0	1
NaN	1.2	192	1	354	0.5025	1	0	0.749	0	1
NaN	1.2	193	2	227	0.5025	2	0	0.7816	0	1
NaN	1.2	194	1	300	0.5028	1	0	0.7842	0	1
NaN	1.2	195	2	350	0.5115	2	0	0.7059	0	1
NaN	1.2	196	2	251	0.5098	2	0	0.5911	0	1
NaN	1.2	197	1	222	0.5095	1	0	0.5967	0	1
NaN	1.2	198	2	205	0.5085	2	0	0.7532	0	1
NaN	1.2001	199	1	192	0.5093	1	0	0.5861	0	1
NaN	1.2	200	2	339	0.5062	2	0	0.7341	0	1
NaN	1.2	201	2	267	0.5079	2	0	0.6562	0	1
NaN	1.2	202	1	258	0.5057	1	0	0.6363	0	1
NaN	1.2	203	1	228	0.5051	1	0	0.7821	0	1
NaN	1.2	204	2	196	0.505	2	0	0.7996	0	1
NaN	1.2	205	1	186	0.5051	1	0	0.7714	0	1
NaN	1.2	206	2	320	0.5044	1	0	0.7751	0	0
NaN	1.2	207	2	304	0.5042	2	0	0.9396	0	1
NaN	1.2	208	2	269	0.5044	2	0	0.8728	0	1
NaN	1.2	209	2	351	0.5032	2	0	0.7373	0	1
NaN	1.2	210	2	298	0.5028	2	0	0.7239	0	1
NaN	1.2	211	2	203	0.5103	2	0	0.6877	0	1
NaN	1.2	212	2	329	0.51	2	0	0.5911	0	1
NaN	1.2	213	2	259	0.5097	2	0	0.4962	0	1
NaN	1.2	214	1	240	0.5094	2	1	0.5736	0.8875	0
NaN	1.2	215	1	318	0.5085	1	0	1.0941	0	1
NaN	1.2	216	2	331	0.5097	2	0	0.8625	0	1
NaN	1.2	217	1	210	0.5097	1	0	0.6894	0	1
NaN	1.2	218	2	356	0.5092	2	0	0.689	0	1
NaN	1.2	219	2	201	0.5085	2	0	0.9625	0	1
NaN	1.2	220	2	214	0.508	2	0	0.7959	0	1
NaN	1.2	221	2	325	0.508	2	0	0.8293	0	1
NaN	1.2	222	2	308	0.5071	2	0	0.6928	0	1
NaN	1.2	223	2	208	0.507	2	0	0.7774	0	1
NaN	1.2	224	2	226	0.5064	2	0	0.9777	0	1
NaN	1.2	225	2	206	0.5067	2	0	0.9096	0	1
NaN	1.2	226	2	271	0.5069	2	0	0.6367	0	1
NaN	1.2	227	2	248	0.5055	2	0	0.6044	0	1
NaN	1.2	228	2	254	0.5047	2	0	0.4978	0	1
NaN	1.2	229	2	262	0.5054	2	0	0.5207	0	1
NaN	1.2	230	2	346	0.5042	2	0	0.6161	0	1
NaN	1.2	231	2	307	0.504	2	0	0.5457	0	1
NaN	1.2	232	1	216	0.5032	1	0	0.9387	0	1
NaN	1.2	233	2	313	0.5039	2	0	0.7256	0	1
NaN	1.2	234	2	285	0.5039	2	0	0.6837	0	1
NaN	1.2	235	2	265	0.5029	2	0	0.7496	0	1
NaN	1.2	236	2	194	0.503	2	0	0.7852	0	1
NaN	1.2	237	2	349	0.5087	2	0	0.5531	0	1
NaN	1.2	238	2	303	0.5075	2	0	0.6254	0	1
NaN	1.2	239	2	182	0.5073	0	0	0	0	0
NaN	1.2	240	2	218	0.5069	2	0	0.9979	0	1
NaN	1.2	241	1	252	0.5074	1	0	0.7715	0	1
NaN	1.2	242	2	235	0.5073	2	0	0.6658	0	1
NaN	1.2	243	1	234	0.5071	1	0	0.7684	0	1
NaN	1.2	244	1	282	0.5069	1	0	0.8327	0	1
NaN	1.2	245	2	236	0.5067	2	0	0.9008	0	1
NaN	1.2	246	2	352	0.5059	2	0	0.8779	0	1
NaN	1.2	247	2	243	0.506	2	0	0.6748	0	1
NaN	1.2	248	2	212	0.5048	2	0	0.7904	0	1
NaN	1.2	249	2	255	0.5041	2	0	0.8804	0	1
NaN	1.2	250	2	305	0.5046	2	0	0.9221	0	1
NaN	1.2	251	2	283	0.5041	2	0	0.8035	0	1
NaN	1.2	252	2	302	0.5037	2	0	0.68	0	1
NaN	1.2	253	2	275	0.5032	2	0	1.0497	0	1
NaN	1.2	254	2	289	0.5114	2	0	0.9738	0	1
NaN	1.2	255	1	294	0.5108	1	0	1.2818	0	1
NaN	1.2	256	2	185	0.5102	2	0	0.9468	0	1
NaN	1.2	257	2	280	0.5101	2	0	0.5897	0	1
NaN	1.2	258	2	309	0.5094	2	0	0.6761	0	1
NaN	1.2	259	2	337	0.5103	2	0	1.0009	0	1
NaN	1.2	260	2	344	0.5093	2	0	0.8644	0	1
NaN	1.2	261	2	345	0.509	2	0	0.6001	0	1
NaN	1.2	262	2	291	0.5078	2	0	0.7702	0	1
NaN	1.2	263	2	209	0.5082	2	0	0.9441	0	1
NaN	1.2	264	2	261	0.5068	2	0	0.9976	0	1
NaN	1.2	265	2	273	0.5062	2	0	0.7049	0	1
NaN	1.2	266	2	190	0.5078	2	0	0.7065	0	1
NaN	1.2	267	1	306	0.5077	1	0	0.6891	0	1
NaN	1.2	268	2	188	0.5068	2	0	0.5725	0	1
NaN	1.2	269	2	230	0.506	2	0	0.6462	0	1
NaN	1.2	270	2	319	0.5062	2	0	0.7006	0	1
NaN	1.2	271	2	299	0.5058	2	0	0.835	0	1
NaN	1.2	272	1	324	0.5064	1	0	0.8124	0	1
NaN	1.2	273	2	223	0.5049	2	0	0.601	0	1
NaN	1.2	274	2	281	0.5048	2	0	0.4968	0	1
NaN	1.2	275	2	224	0.5043	2	0	0.5744	0	1
NaN	1.2	276	2	310	0.5039	2	0	0.6446	0	1
NaN	1.2	277	2	184	0.5038	2	0	0.5623	0	1
NaN	1.2	278	2	189	0.5028	2	0	0.5527	0	1
NaN	1.2	279	2	219	0.5031	2	0	0.7094	0	1
NaN	1.2	280	2	266	0.5027	2	0	0.5753	0	1
NaN	1.2	281	2	187	0.5109	2	0	0.6334	0	1
NaN	1.2	282	2	225	0.5101	2	0	0.7127	0	1
NaN	1.2	283	2	278	0.5105	2	0	0.6123	0	1
NaN	1.2	284	2	295	0.5099	2	0	0.5248	0	1
NaN	1.2	285	1	270	0.5103	1	0	0.6406	0	1
NaN	1.2	286	2	238	0.5088	2	0	0.657	0	1
NaN	1.2	287	2	233	0.5093	2	0	0.5278	0	1
NaN	1.2	288	2	229	0.5087	2	0	0.5871	0	1
NaN	1.2	289	2	290	0.5081	2	0	0.4935	0	1
NaN	1.2	290	1	246	0.5078	1	0	0.6701	0	1
NaN	1.2	291	1	264	0.5072	1	0	0.7415	0	1
NaN	1.2	292	2	335	0.5077	2	0	0.6819	0	1
NaN	1.2	293	2	311	0.5066	2	0	0.8666	0	1
NaN	1.2	294	2	257	0.5069	2	0	0.6258	0	1
NaN	1.2	295	2	293	0.5055	2	0	0.5686	0	1
NaN	1.2	296	2	287	0.506	2	0	0.7329	0	1
NaN	1.2	297	2	241	0.506	2	0	0.6145	0	1
NaN	1.2	298	2	341	0.5052	2	0	0.5703	0	1
NaN	1.2	299	2	323	0.5051	2	0	0.5834	0	1
NaN	1.2	300	2	244	0.5042	2	0	0.6179	0	1
NaN	1.2	301	1	336	0.5039	1	0	0.858	0	1
NaN	1.2	302	1	342	0.5045	1	0	0.6801	0	1
NaN	1.2	303	2	247	0.5038	2	0	0.6246	0	1
NaN	1.2	304	2	260	0.5027	2	0	0.5432	0	1
NaN	1.2	305	2	232	0.5098	2	0	0.5637	0	1
NaN	1.2	306	2	237	0.51	2	0	0.7267	0	1
NaN	1.2	307	1	348	0.5092	1	0	0.7308	0	1
NaN	1.2	308	2	217	0.5116	2	0	0.5902	0	1
NaN	1.2	309	2	327	0.5101	2	0	0.4876	0	1
NaN	1.2	310	2	199	0.5097	2	0	0.6624	0	1
NaN	1.2	311	2	200	0.5092	2	0	0.951	0	1
NaN	1.2	312	1	330	0.5087	1	0	0.8172	0	1
NaN	1.2	313	2	231	0.5081	2	0	0.7342	0	1
NaN	1.2	314	2	292	0.5079	2	0	0.6524	0	1
NaN	1.2	315	2	355	0.5076	2	0	0.5729	0	1
NaN	1.2	316	2	343	0.5074	2	0	0.5103	0	1
NaN	1.2	317	2	242	0.5066	2	0	0.7968	0	1
NaN	1.2	318	2	314	0.5058	2	0	0.6583	0	1
NaN	1.2	319	2	297	0.5056	2	0	0.6169	0	1
NaN	1.2	320	2	220	0.5061	2	0	0.5355	0	1
NaN	1.2	321	2	221	0.5052	2	0	0.6478	0	1
NaN	1.2	322	2	197	0.5058	2	0	0.5914	0	1
NaN	1.2	323	2	286	0.5047	2	0	0.6139	0	1
NaN	1.2	324	2	263	0.5054	2	0	0.6826	0	1
NaN	1.2	325	1	276	0.5034	1	0	0.897	0	1
NaN	1.2	326	2	272	0.5042	2	0	0.7095	0	1
NaN	1.2	327	2	340	0.5032	2	0	0.5972	0	1
NaN	1.2	328	2	211	0.5035	2	0	0.6675	0	1
NaN	1.2	329	2	191	0.502	2	0	0.6682	0	1
NaN	1.2	330	2	296	0.5028	2	0	0.7308	0	1
NaN	1.2	331	2	207	0.5098	2	0	0.5642	0	1
NaN	1.2	332	2	332	0.5118	2	0	0.5246	0	1
NaN	1.2	333	2	183	0.5093	2	0	0.8221	0	1
NaN	1.2	334	2	357	0.51	2	0	0.6038	0	1
NaN	1.2	335	2	333	0.5098	2	0	0.5915	0	1
NaN	1.2	336	2	359	0.5084	2	0	0.657	0	1
NaN	1.2	337	2	268	0.509	2	0	0.6693	0	1
NaN	1.2	338	2	347	0.5086	2	0	0.6247	0	1
NaN	1.2	339	2	239	0.5082	2	0	0.6722	0	1
NaN	1.2	340	2	317	0.5068	2	0	0.5862	0	1
NaN	1.2	341	1	198	0.5078	1	0	0.7484	0	1
NaN	1.2	342	2	277	0.5069	2	0	0.6857	0	1
NaN	1.2	343	2	301	0.5062	2	0	0.7649	0	1
NaN	1.2	344	2	181	0.5065	2	0	0.7928	0	1
NaN	1.2	345	2	274	0.5057	2	0	0.6103	0	1
NaN	1.2	346	2	334	0.5058	2	0	0.5921	0	1
NaN	1.2	347	2	193	0.5052	2	0	0.7795	0	1
NaN	1.2	348	2	250	0.5046	2	0	0.6342	0	1
NaN	1.2	349	2	215	0.504	2	0	0.5476	0	1
NaN	1.2	350	2	316	0.5038	2	0	0.5922	0	1
NaN	1.2	351	1	288	0.503	2	0	0.6034	0	0
NaN	1.2	352	1	204	0.5028	1	0	0.7481	0	1
NaN	1.2	353	2	249	0.5024	2	0	0.6798	0	1
NaN	1.2	354	1	312	0.5019	1	0	0.6129	0	1
NaN	1.2	355	2	353	0.5013	2	0	0.6567	0	1
NaN	1.2	356	2	213	0.5101	2	0	0.6161	0	1
NaN	1.2	357	2	328	0.5097	2	0	0.5438	0	1
NaN	1.2	358	2	279	0.5102	2	0	0.5143	0	1
NaN	1.2	359	2	326	0.5102	2	0	0.4568	0	1
NaN	1.2	360	2	315	0.5094	2	0	0.6562	0	1
